Folder: Python-

File: 30min.asc
*TYPE		=  Raw
*CLASS		=  ASCII CLASS
*SAMPLE		=  30min
*COMMENT	=
*FNAME		=  30min_Theta_2-Theta.asc
*DATE		=  19-Dec-18 17:10

*GROUP_COUNT	=  1
*GONIO		=  MiniFlex 300/600 +, 150
*ATTACHMENT	=  Standard Sample Holder
*ASC		=  0, 0, 0.000000, 0.000000
*FILTER		=  None
*C_MONOCHRO	=  Bent, 0.000000
*SLIT_NAME	=  0, IHS
*SLIT_NAME	=  1, DS +
*SLIT_NAME	=  2, SS
*SLIT_NAME	=  3, RS
*COUNTER	=  SC-70, 0
*POS_FORMAT	=  0
*SCAN_AXIS	=  2theta/theta
*MEAS_MODE	=  Continuous Scanning
*TARGET		=  29
*XRAY_CHAR	=  K-ALPHA
*WAVE_LENGTH1	=  1.54059
*WAVE_LENGTH2	=  1.54441
*THICKNESS	=  0, 0.000000
*MU		=  0, 0.000000
*SCAN_MODE	=  2theta/theta
*SPEED_DIM	=  sec./step
*XUNIT		=  deg.
*YUNIT		=  counts
*SCALE_MODE	=  1
*REP_COUNT	=  0
*SE_COUNT	=  0
*STD_MATERIAL	=  Unknown, Unknown, 0.000000, 0.000000, 0.000000, 0.000000, 0.000000, 0.000000
*LATT_CONS	=  0, Unknown, Unknown, 0.000000, 0.000000, 0.000000, 0.000000, 0.000000, 0.000000
*SEC_COUNT	=  1
*TSPEC_SIZE	=  0
*EXTRA_SIZE	=  0
*MEMO		=

*BEGIN
*GROUP		=  0
*START		=  30
*STOP		=  90
*STEP		=  0.01
*OFFSET		=  0.000000
*SPEED		=  0.3
*SLIT_SPEC	=  0, 10.0mm, 10, 0.000000
*SLIT_SPEC	=  1, 1.250deg, 1.25, 0.000000
*SLIT_SPEC	=  2, 1.250deg, 1.25, 0.000000
*SLIT_SPEC	=  3, 0.3mm, 0.3, 0.000000
*KV		=  40
*MA		=  15
*LOW		=  0.000000
*HIGH		=  0.000000
*CTEMPER	=  0, 0.000000
*CTEMPER	=  1, 0.000000
*CTEMPER	=  2, 0.000000
*PAREX		=  0, 0.000000
*PAREX		=  1, 0.000000
*PAREX		=  2, 0.000000
*PAREX		=  3, 0.000000
*PAREX		=  4, 0.000000
*PAREX		=  5, 0.000000
*PAREX		=  6, 0.000000
*PAREX		=  7, 0.000000
*PAREX		=  8, 0.000000
*PAREX		=  9, 0.000000
*PAREX		=  10, 0.000000
*PAREX		=  11, 0.000000
*PAREX		=  12, 0.000000
*PAREX		=  13, 0.000000
*PAREX		=  14, 0.000000
*PAREX		=  15, 0.000000
*FULL_SCALE	=  828
*INDEX		=  0, 0, 0
*COUNT		=  6001
21, 16, 15, 16
9, 15, 11, 7
10, 16, 13, 17
9, 11, 19, 16
14, 13, 13, 19
13, 10, 12, 16
10, 13, 11, 12
20, 15, 13, 22
15, 15, 16, 15
16, 15, 14, 19
11, 19, 20, 14
17, 19, 14, 12
16, 18, 20, 15
11, 11, 13, 16
17, 13, 15, 13
14, 20, 19, 18
21, 18, 16, 16
20, 20, 13, 16
23, 17, 20, 23
20, 19, 17, 20
17, 14, 24, 21
22, 16, 17, 17
20, 17, 14, 19
23, 17, 21, 25
24, 24, 23, 19
29, 32, 25, 27
30, 27, 22, 18
30, 22, 23, 21
36, 24, 36, 33
36, 31, 34, 36
35, 38, 34, 33
31, 33, 37, 44
32, 43, 38, 38
41, 40, 53, 49
48, 68, 45, 44
57, 64, 75, 69
68, 92, 85, 73
89, 75, 87, 79
86, 86, 107, 100
99, 123, 133, 113
127, 122, 144, 126
125, 152, 132, 131
153, 163, 161, 170
190, 167, 190, 185
185, 190, 175, 182
188, 187, 190, 182
185, 192, 186, 186
171, 158, 182, 180
178, 172, 161, 186
148, 144, 143, 148
150, 136, 151, 130
148, 139, 138, 135
124, 116, 108, 125
111, 108, 109, 120
91, 99, 104, 93
95, 87, 94, 89
85, 88, 87, 96
76, 73, 78, 73
77, 83, 80, 86
73, 86, 73, 74
70, 66, 64, 62
73, 62, 70, 75
73, 75, 67, 57
69, 73, 72, 76
69, 71, 69, 70
57, 59, 75, 73
70, 74, 71, 70
67, 70, 72, 74
75, 69, 72, 69
75, 70, 65, 74
88, 76, 72, 76
67, 77, 89, 78
72, 73, 72, 66
71, 70, 76, 68
58, 64, 71, 71
78, 71, 56, 70
62, 54, 49, 51
58, 62, 63, 61
54, 52, 48, 51
50, 48, 55, 54
46, 51, 57, 50
49, 47, 47, 45
41, 45, 44, 44
32, 36, 37, 36
35, 36, 31, 27
26, 28, 24, 25
30, 27, 30, 26
27, 28, 30, 25
21, 27, 25, 22
22, 23, 23, 22
25, 24, 20, 21
19, 18, 22, 21
16, 16, 18, 24
15, 15, 18, 18
22, 18, 14, 16
17, 20, 14, 14
22, 17, 13, 17
15, 15, 16, 20
19, 14, 12, 15
12, 21, 27, 20
17, 15, 13, 12
14, 16, 17, 17
13, 15, 19, 17
16, 18, 18, 13
16, 14, 18, 18
14, 14, 18, 16
18, 12, 11, 16
13, 18, 17, 14
11, 16, 9, 13
18, 14, 15, 17
13, 16, 17, 17
17, 14, 18, 12
15, 14, 12, 14
16, 11, 12, 11
11, 11, 13, 19
9, 9, 13, 12
11, 16, 10, 10
14, 15, 16, 16
14, 13, 11, 13
19, 16, 12, 17
14, 18, 15, 13
15, 9, 16, 10
15, 13, 14, 13
9, 14, 17, 14
19, 19, 12, 19
18, 16, 14, 16
11, 12, 15, 8
20, 18, 18, 17
17, 18, 15, 17
12, 13, 13, 12
16, 13, 8, 11
13, 17, 19, 13
13, 10, 10, 16
19, 20, 13, 11
16, 20, 17, 21
15, 16, 14, 15
15, 14, 15, 14
13, 14, 15, 16
13, 14, 15, 14
17, 14, 17, 12
14, 19, 15, 14
23, 11, 15, 18
18, 17, 19, 19
16, 15, 16, 12
17, 21, 23, 10
22, 19, 12, 13
26, 23, 25, 18
21, 15, 17, 26
16, 17, 23, 23
19, 27, 27, 21
17, 22, 39, 25
37, 23, 29, 21
23, 27, 26, 32
35, 38, 37, 35
27, 38, 32, 36
32, 37, 44, 37
36, 35, 37, 44
44, 39, 44, 39
49, 41, 41, 33
54, 35, 50, 39
36, 43, 47, 38
49, 53, 46, 59
55, 52, 45, 49
57, 39, 50, 63
59, 53, 54, 43
56, 47, 60, 52
51, 53, 51, 48
54, 53, 49, 42
41, 51, 48, 49
46, 45, 37, 47
46, 43, 35, 43
47, 43, 48, 44
40, 42, 39, 35
35, 35, 35, 33
38, 35, 28, 29
26, 25, 26, 32
33, 35, 33, 35
25, 22, 20, 28
21, 25, 31, 23
22, 24, 24, 29
22, 20, 16, 24
21, 23, 19, 20
18, 21, 22, 12
22, 26, 22, 22
17, 21, 23, 19
21, 22, 22, 25
20, 12, 21, 21
18, 18, 17, 19
15, 19, 18, 25
22, 18, 18, 20
22, 22, 17, 12
16, 16, 21, 16
27, 23, 19, 19
12, 13, 13, 16
17, 20, 16, 18
19, 25, 18, 15
22, 16, 16, 14
17, 18, 19, 18
15, 19, 20, 18
18, 17, 16, 18
19, 20, 18, 19
13, 20, 18, 18
19, 15, 19, 18
28, 27, 20, 26
31, 29, 23, 24
16, 21, 22, 23
24, 22, 22, 23
25, 34, 22, 20
32, 29, 26, 29
32, 26, 27, 26
31, 32, 32, 32
34, 35, 35, 30
28, 30, 41, 33
46, 28, 33, 34
41, 42, 38, 40
40, 44, 54, 39
47, 43, 40, 52
45, 40, 48, 51
46, 46, 49, 59
58, 55, 56, 56
54, 58, 55, 62
64, 62, 56, 62
54, 57, 60, 62
63, 66, 55, 51
65, 59, 60, 54
63, 62, 61, 71
66, 60, 58, 64
55, 57, 58, 58
57, 60, 52, 58
64, 61, 56, 57
55, 48, 48, 48
47, 51, 49, 42
40, 47, 50, 52
50, 45, 50, 52
40, 40, 55, 50
46, 57, 47, 48
40, 41, 50, 46
38, 44, 36, 38
38, 30, 36, 31
34, 31, 38, 33
33, 37, 35, 31
25, 28, 32, 46
30, 36, 18, 34
38, 33, 30, 38
36, 26, 32, 37
22, 32, 30, 26
28, 32, 32, 30
28, 29, 28, 28
29, 24, 27, 23
18, 21, 24, 19
19
*END

*EOF